{
  "resourceType": "Bundle",
    "type": "collection",
    "id": "ffdb9c3c-bcf7-47ba-8c01-6ce4fbaae757",
    "link": [
      {
        "rel": "self",
        "href": "http://127.0.0.1/fhir/patient/9E7A;253/observation?_tag=social-history"
      }
    ],
    "meta": {
      "lastUpdated": "2016-04-26T19:18:24.414Z"
    },
    "entry": [
      {
        "resource": {
          "resourceType": "Observation",
          "text": {
            "status": "generated",
            "div": "<div>REFUSES HEPATITIS C TESTING</div>"
          },
          "contained": [
            {
              "resourceType": "Organization",
              "id": "e61d6e60-d610-40cc-9a9e-8fa95d52fb0e",
              "identifier": [
                {
                  "system": "urn:oid:2.16.840.1.113883.6.233",
                  "value": "888"
                }
              ],
              "name": "FT. LOGAN"
            }
          ],
          "code": {
            "coding": [
              {
                "system": "http://ehmp.DNS   /terminology/1.0",
                "code": "/concept/HF.REFUSES%20HEPATITIS%20C%20TESTING",
                "display": "REFUSES HEPATITIS C TESTING"
              }
            ]
          },
          "appliesDateTime": "2001-04-09T17:46:26Z",
          "status": "final",
          "reliability": "unknown",
          "identifier": [
            {
              "use": "official",
              "system": "http://vistacore.us/fhir/id/uid",
              "value": "urn:va:factor:9E7A:253:25"
            }
          ],
          "subject": {
            "reference": "Patient/253"
          },
          "performer": [
            {
              "reference": "e61d6e60-d610-40cc-9a9e-8fa95d52fb0e",
              "display": "FT. LOGAN"
            }
          ]
        }
      },
      {
        "resource": {
          "resourceType": "Observation",
          "text": {
            "status": "generated",
            "div": "<div>REFUSAL TO COMPLETE SCREENING TOOL</div>"
          },
          "contained": [
            {
              "resourceType": "Organization",
              "id": "b92582e6-30f2-4c56-875c-899b5a52c1e9",
              "identifier": [
                {
                  "system": "urn:oid:2.16.840.1.113883.6.233",
                  "value": "561"
                }
              ],
              "name": "New Jersey HCS"
            }
          ],
          "code": {
            "coding": [
              {
                "system": "http://ehmp.DNS   /terminology/1.0",
                "code": "/concept/HF.REFUSAL%20TO%20COMPLETE%20SCREENING%20TOOL",
                "display": "REFUSAL TO COMPLETE SCREENING TOOL"
              }
            ]
          },
          "appliesDateTime": "2002-02-26T21:03:07Z",
          "status": "final",
          "reliability": "unknown",
          "identifier": [
            {
              "use": "official",
              "system": "http://vistacore.us/fhir/id/uid",
              "value": "urn:va:factor:ABCD:10107V395912:32"
            }
          ],
          "subject": {
            "reference": "Patient/10107V395912"
          },
          "performer": [
            {
              "reference": "b92582e6-30f2-4c56-875c-899b5a52c1e9",
              "display": "New Jersey HCS"
            }
          ]
        }
      },
      {
        "resource": {
          "resourceType": "Observation",
          "text": {
            "status": "generated",
            "div": "<div>REFUSES HEPATITIS C TESTING</div>"
          },
          "contained": [
            {
              "resourceType": "Organization",
              "id": "3876bf45-9638-4a3f-b87b-2b37c7d4b095",
              "identifier": [
                {
                  "system": "urn:oid:2.16.840.1.113883.6.233",
                  "value": "888"
                }
              ],
              "name": "FT. LOGAN"
            }
          ],
          "code": {
            "coding": [
              {
                "system": "http://ehmp.DNS   /terminology/1.0",
                "code": "/concept/HF.REFUSES%20HEPATITIS%20C%20TESTING",
                "display": "REFUSES HEPATITIS C TESTING"
              }
            ]
          },
          "appliesDateTime": "2001-04-09T17:46:26Z",
          "status": "final",
          "reliability": "unknown",
          "identifier": [
            {
              "use": "official",
              "system": "http://vistacore.us/fhir/id/uid",
              "value": "urn:va:factor:C877:253:25"
            }
          ],
          "subject": {
            "reference": "Patient/253"
          },
          "performer": [
            {
              "reference": "3876bf45-9638-4a3f-b87b-2b37c7d4b095",
              "display": "FT. LOGAN"
            }
          ]
        }
      }
    ]
}